Folder: ELECHEM/Exmaple/Sample1

Note: README.md
# ELECHEM
Data Processing and Plotting for Electrochemical Mesasurements

File: ORR.txt
Potential applied (V);Time (s);WE(1).Current (A);Index;Current range
-0.899811;197.985;-0.00148651;1;1 mA
-0.895386;198.87;-0.00148102;30;1 mA
-0.890961;199.755;-0.00148102;59;1 mA
-0.886536;200.64;-0.00148163;88;1 mA
-0.882111;201.525;-0.00147522;117;1 mA
-0.877686;202.41;-0.00147705;146;1 mA
-0.87326;203.295;-0.00147736;175;1 mA
-0.868835;204.18;-0.00147827;204;1 mA
-0.86441;205.065;-0.00148315;233;1 mA
-0.859985;205.95;-0.00147797;262;1 mA
-0.85556;206.835;-0.00148102;291;1 mA
-0.851135;207.72;-0.00147644;320;1 mA
-0.84671;208.606;-0.00148193;349;1 mA
-0.842285;209.491;-0.00147797;378;1 mA
-0.83786;210.376;-0.0014798;407;1 mA
-0.833435;211.261;-0.0014798;436;1 mA
-0.82901;212.146;-0.00148041;465;1 mA
-0.824585;213.031;-0.0014798;494;1 mA
-0.82016;213.916;-0.00147552;523;1 mA
-0.815735;214.801;-0.00147797;552;1 mA
-0.81131;215.686;-0.00147919;581;1 mA
-0.806885;216.571;-0.00148071;610;1 mA
-0.80246;217.456;-0.0014801;639;1 mA
-0.798035;218.341;-0.0014798;668;1 mA
-0.79361;219.226;-0.00148346;697;1 mA
-0.789185;220.111;-0.00146729;726;1 mA
-0.78476;220.996;-0.00148102;755;1 mA
-0.780334;221.881;-0.00147766;784;1 mA
-0.775909;222.766;-0.00147552;813;1 mA
-0.771484;223.651;-0.00148041;842;1 mA
-0.767059;224.536;-0.00147827;871;1 mA
-0.762634;225.421;-0.00148071;900;1 mA
-0.758209;226.306;-0.00147766;929;1 mA
-0.753784;227.191;-0.00148071;958;1 mA
-0.749359;228.076;-0.00147766;987;1 mA
-0.744934;228.961;-0.00148376;1016;1 mA
-0.740509;229.846;-0.00148254;1045;1 mA
-0.736084;230.731;-0.00148254;1074;1 mA
-0.731659;231.616;-0.00148315;1103;1 mA
-0.727234;232.501;-0.00148193;1132;1 mA
-0.722809;233.386;-0.00148041;1161;1 mA
-0.718384;234.271;-0.00147583;1190;1 mA
-0.713959;235.156;-0.00148071;1219;1 mA
-0.709534;236.041;-0.00147675;1248;1 mA
-0.705109;236.926;-0.00147614;1277;1 mA
-0.700684;237.811;-0.00148071;1306;1 mA
-0.696259;238.696;-0.00147949;1335;1 mA
-0.691833;239.581;-0.00148346;1364;1 mA
-0.687408;240.466;-0.00147614;1393;1 mA
-0.682983;241.351;-0.00147949;1422;1 mA
-0.678558;242.236;-0.00148163;1451;1 mA
-0.674133;243.121;-0.00147644;1480;1 mA
-0.669708;244.006;-0.00147705;1509;1 mA
-0.665283;244.891;-0.00147797;1538;1 mA
-0.660858;245.776;-0.00148071;1567;1 mA
-0.656433;246.661;-0.00147736;1596;1 mA
-0.652008;247.546;-0.00147827;1625;1 mA
-0.647583;248.431;-0.00148254;1654;1 mA
-0.643158;249.317;-0.00147339;1683;1 mA
-0.638733;250.202;-0.00147858;1712;1 mA
-0.634308;251.087;-0.00147858;1741;1 mA
-0.629883;251.972;-0.00147797;1770;1 mA
-0.625458;252.857;-0.00147675;1799;1 mA
-0.621033;253.742;-0.00147797;1828;1 mA
-0.616608;254.627;-0.00147491;1857;1 mA
-0.612183;255.512;-0.00147522;1886;1 mA
-0.607758;256.397;-0.00147949;1915;1 mA
-0.603333;257.282;-0.001474;1944;1 mA
-0.598907;258.167;-0.00147797;1973;1 mA
-0.594482;259.052;-0.00147583;2002;1 mA
-0.590057;259.937;-0.00147766;2031;1 mA
-0.585632;260.822;-0.00148132;2060;1 mA
-0.581207;261.707;-0.00147034;2089;1 mA
-0.576782;262.592;-0.00147766;2118;1 mA
-0.572357;263.477;-0.00147369;2147;1 mA
-0.567932;264.362;-0.00147491;2176;1 mA
-0.563507;265.247;-0.001474;2205;1 mA
-0.559082;266.132;-0.00147522;2234;1 mA
-0.554657;267.017;-0.00146576;2263;1 mA
-0.550232;267.902;-0.00147034;2292;1 mA
-0.545807;268.787;-0.00146942;2321;1 mA
-0.541382;269.672;-0.00146851;2350;1 mA
-0.536957;270.557;-0.00146973;2379;1 mA
-0.532532;271.442;-0.00146912;2408;1 mA
-0.528107;272.327;-0.00146698;2437;1 mA
-0.523682;273.212;-0.00146667;2466;1 mA
-0.519257;274.097;-0.00147247;2495;1 mA
-0.514832;274.982;-0.00146851;2524;1 mA
-0.510406;275.867;-0.0014859;2553;1 mA
-0.505981;276.752;-0.00146942;2582;1 mA
-0.501556;277.637;-0.00146423;2611;1 mA
-0.497131;278.522;-0.00146698;2640;1 mA
-0.492706;279.407;-0.0014679;2669;1 mA
-0.488281;280.292;-0.00146484;2698;1 mA
-0.483856;281.177;-0.00145844;2727;1 mA
-0.479431;282.062;-0.00146271;2756;1 mA
-0.475006;282.947;-0.00146393;2785;1 mA
-0.470581;283.832;-0.00146149;2814;1 mA
-0.466156;284.717;-0.00146301;2843;1 mA
-0.461731;285.602;-0.00145905;2872;1 mA
-0.457306;286.487;-0.00146057;2901;1 mA
-0.452881;287.372;-0.00146545;2930;1 mA
-0.448456;288.257;-0.0014563;2959;1 mA
-0.444031;289.143;-0.00145996;2988;1 mA
-0.439606;290.028;-0.00145813;3017;1 mA
-0.435181;290.913;-0.00145599;3046;1 mA
-0.430756;291.798;-0.00145752;3075;1 mA
-0.426331;292.683;-0.0014563;3104;1 mA
-0.421906;293.568;-0.00145844;3133;1 mA
-0.41748;294.453;-0.00145172;3162;1 mA
-0.413055;295.338;-0.00145477;3191;1 mA
-0.40863;296.223;-0.00145416;3220;1 mA
-0.404205;297.108;-0.00145508;3249;1 mA
-0.39978;297.993;-0.00145355;3278;1 mA
-0.395355;298.878;-0.00145294;3307;1 mA
-0.39093;299.763;-0.00145386;3336;1 mA
-0.386505;300.648;-0.00145477;3365;1 mA
-0.38208;301.533;-0.00145233;3394;1 mA
-0.377655;302.418;-0.00145294;3423;1 mA
-0.37323;303.303;-0.00144989;3452;1 mA
-0.368805;304.188;-0.00144714;3481;1 mA
-0.36438;305.073;-0.00144806;3510;1 mA
-0.359955;305.958;-0.00144531;3539;1 mA
-0.35553;306.843;-0.00144897;3568;1 mA
-0.351105;307.728;-0.00144684;3597;1 mA
-0.34668;308.613;-0.00144836;3626;1 mA
-0.342255;309.498;-0.00144562;3655;1 mA
-0.33783;310.383;-0.0014386;3684;1 mA
-0.333405;311.268;-0.00144409;3713;1 mA
-0.328979;312.153;-0.00144562;3742;1 mA
-0.324554;313.038;-0.00143951;3771;1 mA
-0.320129;313.923;-0.00143738;3800;1 mA
-0.315704;314.808;-0.00143799;3829;1 mA
-0.311279;315.693;-0.00144043;3858;1 mA
-0.306854;316.578;-0.00143616;3887;1 mA
-0.302429;317.463;-0.00143372;3916;1 mA
-0.298004;318.348;-0.00143524;3945;1 mA
-0.293579;319.233;-0.00142487;3974;1 mA
-0.289154;320.118;-0.00142822;4003;1 mA
-0.284729;321.003;-0.00142822;4032;1 mA
-0.280304;321.888;-0.00143005;4061;1 mA
-0.275879;322.773;-0.00142639;4090;1 mA
-0.271454;323.658;-0.00142242;4119;1 mA
-0.267029;324.543;-0.00142059;4148;1 mA
-0.262604;325.428;-0.00142242;4177;1 mA
-0.258179;326.313;-0.00142303;4206;1 mA
-0.253754;327.198;-0.00142303;4235;1 mA
-0.249329;328.083;-0.00141602;4264;1 mA
-0.244904;328.968;-0.00141327;4293;1 mA
-0.240479;329.854;-0.00141052;4322;1 mA
-0.236053;330.739;-0.00141296;4351;1 mA
-0.231628;331.624;-0.001409;4380;1 mA
-0.227203;332.509;-0.00140747;4409;1 mA
-0.222778;333.394;-0.00140594;4438;1 mA
-0.218353;334.279;-0.00140717;4467;1 mA
-0.213928;335.164;-0.0013974;4496;1 mA
-0.209503;336.049;-0.00140045;4525;1 mA
-0.205078;336.934;-0.0013913;4554;1 mA
-0.200653;337.819;-0.00139496;4583;1 mA
-0.196228;338.704;-0.00139313;4612;1 mA
-0.191803;339.589;-0.00138794;4641;1 mA
-0.187378;340.474;-0.00138855;4670;1 mA
-0.182953;341.359;-0.00138062;4699;1 mA
-0.178528;342.244;-0.00138214;4728;1 mA
-0.174103;343.129;-0.0013739;4757;1 mA
-0.169678;344.014;-0.00137299;4786;1 mA
-0.165253;344.899;-0.00137238;4815;1 mA
-0.160828;345.784;-0.0013678;4844;1 mA
-0.156403;346.669;-0.00136444;4873;1 mA
-0.151978;347.554;-0.00135712;4902;1 mA
-0.147552;348.439;-0.00135315;4931;1 mA
-0.143127;349.324;-0.0013504;4960;1 mA
-0.138702;350.209;-0.00134735;4989;1 mA
-0.134277;351.094;-0.00134491;5018;1 mA
-0.129852;351.979;-0.00133423;5047;1 mA
-0.125427;352.864;-0.00133301;5076;1 mA
-0.121002;353.749;-0.00133057;5105;1 mA
-0.116577;354.634;-0.00132446;5134;1 mA
-0.112152;355.519;-0.00131592;5163;1 mA
-0.107727;356.404;-0.00131042;5192;1 mA
-0.103302;357.289;-0.00131226;5221;1 mA
-0.098877;358.174;-0.001297;5250;1 mA
-0.0944519;359.059;-0.00128662;5279;1 mA
-0.0900269;359.944;-0.00128082;5308;1 mA
-0.0856018;360.829;-0.00127197;5337;1 mA
-0.0811768;361.714;-0.00126312;5366;1 mA
-0.0767517;362.599;-0.00124878;5395;1 mA
-0.0723267;363.484;-0.00124176;5424;1 mA
-0.0679016;364.369;-0.00122437;5453;1 mA
-0.0634766;365.254;-0.00120636;5482;1 mA
-0.0590515;366.139;-0.00118835;5511;1 mA
-0.0546265;367.024;-0.00116943;5540;1 mA
-0.0502014;367.909;-0.0011441;5569;1 mA
-0.0457764;368.794;-0.00111908;5598;1 mA
-0.0413513;369.68;-0.00109192;5627;1 mA
-0.0369263;370.565;-0.00105316;5656;1 mA
-0.0325012;371.45;-0.00101715;5685;1 mA
-0.0280762;372.335;-0.000976868;5714;1 mA
-0.0236511;373.22;-0.000931091;5743;1 mA
-0.0192261;374.105;-0.000878906;5772;1 mA
-0.014801;374.99;-0.000826721;5801;1 mA
-0.010376;375.875;-0.000768738;5830;1 mA
-0.00595093;376.76;-0.000710449;5859;1 mA
-0.00152588;377.645;-0.000648193;5888;1 mA
0.00289917;378.53;-0.000586243;5917;1 mA
0.00732422;379.415;-0.000524597;5946;1 mA
0.0117493;380.3;-0.000463562;5975;1 mA
0.0161743;381.185;-0.000406311;6004;1 mA
0.0205994;382.07;-0.000351593;6033;1 mA
0.0250244;382.955;-0.000300934;6062;1 mA
0.0294495;383.84;-0.000254517;6091;1 mA
0.0338745;384.725;-0.000213226;6120;1 mA
0.0382996;385.61;-0.00017688;6149;1 mA
0.0427246;386.495;-0.000145172;6178;1 mA
0.0471497;387.38;-0.000117859;6207;1 mA
0.0515747;388.265;-9.47876e-05;6236;1 mA
0.0559998;389.15;-7.52563e-05;6265;1 mA
0.0604248;390.035;-5.9021e-05;6294;1 mA
0.0648499;390.92;-4.54834e-05;6323;1 mA
0.0692749;391.805;-3.43903e-05;6352;1 mA
0.0737;392.69;-2.50671e-05;6381;1 mA
0.078125;393.575;-1.77063e-05;6410;1 mA
0.08255;394.46;-1.16821e-05;6439;1 mA
0.0869751;395.345;-6.57043e-06;6468;1 mA
0.0914001;396.23;-2.41089e-06;6497;1 mA
0.0958252;397.115;6.10352e-07;6526;1 mA
0.10025;398;3.49426e-06;6555;1 mA
0.104675;398.885;5.72205e-06;6584;1 mA
0.1091;399.77;7.63245e-06;6613;1 mA
0.113525;400.655;9.021e-06;6642;1 mA
0.11795;401.54;1.03088e-05;6671;1 mA
0.122375;402.425;1.15692e-05;6700;1 mA
0.126801;403.31;1.22253e-05;6729;1 mA
0.131226;404.195;1.31439e-05;6758;1 mA
0.135651;405.08;1.36108e-05;6787;1 mA
0.140076;405.965;1.41479e-05;6816;1 mA
0.144501;406.85;1.44775e-05;6845;1 mA
0.148926;407.735;1.51154e-05;6874;1 mA
0.153351;408.62;1.53595e-05;6903;1 mA
0.157776;409.505;1.57166e-05;6932;1 mA
0.162201;410.391;1.60767e-05;6961;1 mA
0.166626;411.276;1.66168e-05;6990;1 mA
0.171051;412.161;1.67267e-05;7019;1 mA
0.175476;413.046;1.69739e-05;7048;1 mA
0.179901;413.931;1.71722e-05;7077;1 mA
0.184326;414.816;1.73462e-05;7106;1 mA
0.188751;415.701;1.74438e-05;7135;1 mA
0.193176;416.586;1.76086e-05;7164;1 mA
0.197601;417.471;1.78558e-05;7193;1 mA
0.200043;417.959;1.81519e-05;7209;1 mA