Folder: ELECHEM/Example/Sample2

Note: README.md
# ELECHEM
Data Processing and Plotting for Electrochemical Mesasurements

File: ORR.txt
Potential applied (V);Time (s);WE(1).Current (A);Index;Current range
-0.899811;252.007;-0.00151245;1;1 mA
-0.895386;252.892;-0.00150391;30;1 mA
-0.890961;253.777;-0.00149445;59;1 mA
-0.886536;254.662;-0.00148926;88;1 mA
-0.882111;255.547;-0.00148071;117;1 mA
-0.877686;256.432;-0.00147339;146;1 mA
-0.87326;257.317;-0.00147247;175;1 mA
-0.868835;258.202;-0.00146545;204;1 mA
-0.86441;259.087;-0.00145813;233;1 mA
-0.859985;259.972;-0.00145905;262;1 mA
-0.85556;260.857;-0.00145355;291;1 mA
-0.851135;261.743;-0.00144928;320;1 mA
-0.84671;262.628;-0.00144592;349;1 mA
-0.842285;263.513;-0.00144409;378;1 mA
-0.83786;264.398;-0.00143616;407;1 mA
-0.833435;265.283;-0.00144135;436;1 mA
-0.82901;266.168;-0.00143158;465;1 mA
-0.824585;267.053;-0.00142365;494;1 mA
-0.82016;267.938;-0.00141693;523;1 mA
-0.815735;268.823;-0.00140472;552;1 mA
-0.81131;269.708;-0.00140289;581;1 mA
-0.806885;270.593;-0.00139343;610;1 mA
-0.80246;271.478;-0.00140076;639;1 mA
-0.798035;272.363;-0.00139648;668;1 mA
-0.79361;273.248;-0.00140839;697;1 mA
-0.789185;274.133;-0.00140442;726;1 mA
-0.78476;275.018;-0.00140961;755;1 mA
-0.780334;275.903;-0.00142456;784;1 mA
-0.775909;276.788;-0.00143097;813;1 mA
-0.771484;277.673;-0.0014325;842;1 mA
-0.767059;278.558;-0.00143402;871;1 mA
-0.762634;279.443;-0.00143799;900;1 mA
-0.758209;280.328;-0.0014389;929;1 mA
-0.753784;281.213;-0.0014444;958;1 mA
-0.749359;282.098;-0.00144806;987;1 mA
-0.744934;282.983;-0.00145203;1016;1 mA
-0.740509;283.868;-0.00146454;1045;1 mA
-0.736084;284.753;-0.00147003;1074;1 mA
-0.731659;285.638;-0.00147797;1103;1 mA
-0.727234;286.523;-0.00148254;1132;1 mA
-0.722809;287.408;-0.0014859;1161;1 mA
-0.718384;288.293;-0.00149567;1190;1 mA
-0.713959;289.178;-0.00149689;1219;1 mA
-0.709534;290.063;-0.0014978;1248;1 mA
-0.705109;290.948;-0.00149811;1277;1 mA
-0.700684;291.833;-0.00150055;1306;1 mA
-0.696259;292.718;-0.0014975;1335;1 mA
-0.691833;293.603;-0.00150452;1364;1 mA
-0.687408;294.488;-0.00149292;1393;1 mA
-0.682983;295.373;-0.00149597;1422;1 mA
-0.678558;296.258;-0.00149536;1451;1 mA
-0.674133;297.143;-0.00149414;1480;1 mA
-0.669708;298.028;-0.00149384;1509;1 mA
-0.665283;298.913;-0.00149475;1538;1 mA
-0.660858;299.798;-0.00149902;1567;1 mA
-0.656433;300.683;-0.00149902;1596;1 mA
-0.652008;301.569;-0.00149872;1625;1 mA
-0.647583;302.454;-0.00150055;1654;1 mA
-0.643158;303.339;-0.00149475;1683;1 mA
-0.638733;304.224;-0.0015036;1712;1 mA
-0.634308;305.109;-0.00149994;1741;1 mA
-0.629883;305.994;-0.00149933;1770;1 mA
-0.625458;306.879;-0.00149902;1799;1 mA
-0.621033;307.764;-0.00150024;1828;1 mA
-0.616608;308.649;-0.00149078;1857;1 mA
-0.612183;309.534;-0.00148895;1886;1 mA
-0.607758;310.419;-0.00149597;1915;1 mA
-0.603333;311.304;-0.00148956;1944;1 mA
-0.598907;312.189;-0.0014975;1973;1 mA
-0.594482;313.074;-0.00149414;2002;1 mA
-0.590057;313.959;-0.00148834;2031;1 mA
-0.585632;314.844;-0.00149475;2060;1 mA
-0.581207;315.729;-0.00149048;2089;1 mA
-0.576782;316.614;-0.00149323;2118;1 mA
-0.572357;317.499;-0.00149353;2147;1 mA
-0.567932;318.384;-0.00149658;2176;1 mA
-0.563507;319.269;-0.001492;2205;1 mA
-0.559082;320.154;-0.00149475;2234;1 mA
-0.554657;321.039;-0.00149506;2263;1 mA
-0.550232;321.924;-0.00149048;2292;1 mA
-0.545807;322.809;-0.00149933;2321;1 mA
-0.541382;323.694;-0.00149414;2350;1 mA
-0.536957;324.579;-0.00149384;2379;1 mA
-0.532532;325.464;-0.00149811;2408;1 mA
-0.528107;326.349;-0.00149384;2437;1 mA
-0.523682;327.234;-0.00150085;2466;1 mA
-0.519257;328.119;-0.00149689;2495;1 mA
-0.514832;329.004;-0.00149963;2524;1 mA
-0.510406;329.889;-0.00149811;2553;1 mA
-0.505981;330.774;-0.00149811;2582;1 mA
-0.501556;331.659;-0.00149963;2611;1 mA
-0.497131;332.544;-0.00149963;2640;1 mA
-0.492706;333.429;-0.00149933;2669;1 mA
-0.488281;334.314;-0.00149597;2698;1 mA
-0.483856;335.199;-0.00150146;2727;1 mA
-0.479431;336.084;-0.0014975;2756;1 mA
-0.475006;336.969;-0.00149658;2785;1 mA
-0.470581;337.854;-0.0014975;2814;1 mA
-0.466156;338.739;-0.00149811;2843;1 mA
-0.461731;339.624;-0.00150146;2872;1 mA
-0.457306;340.509;-0.00149719;2901;1 mA
-0.452881;341.394;-0.00149963;2930;1 mA
-0.448456;342.28;-0.00149963;2959;1 mA
-0.444031;343.165;-0.00149902;2988;1 mA
-0.439606;344.05;-0.00149841;3017;1 mA
-0.435181;344.935;-0.0014975;3046;1 mA
-0.430756;345.82;-0.0014978;3075;1 mA
-0.426331;346.705;-0.00149994;3104;1 mA
-0.421906;347.59;-0.00149811;3133;1 mA
-0.41748;348.475;-0.00150085;3162;1 mA
-0.413055;349.36;-0.00150085;3191;1 mA
-0.40863;350.245;-0.00149689;3220;1 mA
-0.404205;351.13;-0.00149597;3249;1 mA
-0.39978;352.015;-0.00149902;3278;1 mA
-0.395355;352.9;-0.00149475;3307;1 mA
-0.39093;353.785;-0.00149933;3336;1 mA
-0.386505;354.67;-0.00149353;3365;1 mA
-0.38208;355.555;-0.00149445;3394;1 mA
-0.377655;356.44;-0.00150055;3423;1 mA
-0.37323;357.325;-0.00149811;3452;1 mA
-0.368805;358.21;-0.00149719;3481;1 mA
-0.36438;359.095;-0.00149445;3510;1 mA
-0.359955;359.98;-0.00149231;3539;1 mA
-0.35553;360.865;-0.00149261;3568;1 mA
-0.351105;361.75;-0.00149261;3597;1 mA
-0.34668;362.635;-0.00148865;3626;1 mA
-0.342255;363.52;-0.00149109;3655;1 mA
-0.33783;364.405;-0.00149017;3684;1 mA
-0.333405;365.29;-0.00149017;3713;1 mA
-0.328979;366.175;-0.00149261;3742;1 mA
-0.324554;367.06;-0.00149109;3771;1 mA
-0.320129;367.945;-0.001492;3800;1 mA
-0.315704;368.83;-0.00148651;3829;1 mA
-0.311279;369.715;-0.00148895;3858;1 mA
-0.306854;370.6;-0.00148865;3887;1 mA
-0.302429;371.485;-0.00148224;3916;1 mA
-0.298004;372.37;-0.0014859;3945;1 mA
-0.293579;373.255;-0.00148285;3974;1 mA
-0.289154;374.14;-0.00148804;4003;1 mA
-0.284729;375.025;-0.00147766;4032;1 mA
-0.280304;375.91;-0.00147827;4061;1 mA
-0.275879;376.795;-0.00147705;4090;1 mA
-0.271454;377.68;-0.00148163;4119;1 mA
-0.267029;378.565;-0.00147522;4148;1 mA
-0.262604;379.45;-0.00147675;4177;1 mA
-0.258179;380.335;-0.0014743;4206;1 mA
-0.253754;381.22;-0.00147614;4235;1 mA
-0.249329;382.106;-0.00147186;4264;1 mA
-0.244904;382.991;-0.00147125;4293;1 mA
-0.240479;383.876;-0.00146851;4322;1 mA
-0.236053;384.761;-0.00147095;4351;1 mA
-0.231628;385.646;-0.00146423;4380;1 mA
-0.227203;386.531;-0.00146912;4409;1 mA
-0.222778;387.416;-0.00146088;4438;1 mA
-0.218353;388.301;-0.0014621;4467;1 mA
-0.213928;389.186;-0.00146149;4496;1 mA
-0.209503;390.071;-0.00146088;4525;1 mA
-0.205078;390.956;-0.0014505;4554;1 mA
-0.200653;391.841;-0.00145325;4583;1 mA
-0.196228;392.726;-0.00145416;4612;1 mA
-0.191803;393.611;-0.00144379;4641;1 mA
-0.187378;394.496;-0.00144775;4670;1 mA
-0.182953;395.381;-0.00144135;4699;1 mA
-0.178528;396.266;-0.00144348;4728;1 mA
-0.174103;397.151;-0.0014386;4757;1 mA
-0.169678;398.036;-0.00143158;4786;1 mA
-0.165253;398.921;-0.00143341;4815;1 mA
-0.160828;399.806;-0.00142883;4844;1 mA
-0.156403;400.691;-0.00142883;4873;1 mA
-0.151978;401.576;-0.00142456;4902;1 mA
-0.147552;402.461;-0.00141815;4931;1 mA
-0.143127;403.346;-0.00141937;4960;1 mA
-0.138702;404.231;-0.00141388;4989;1 mA
-0.134277;405.116;-0.001409;5018;1 mA
-0.129852;406.001;-0.00140411;5047;1 mA
-0.125427;406.886;-0.00140381;5076;1 mA
-0.121002;407.771;-0.00139313;5105;1 mA
-0.116577;408.656;-0.00139282;5134;1 mA
-0.112152;409.541;-0.00138824;5163;1 mA
-0.107727;410.426;-0.00138184;5192;1 mA
-0.103302;411.311;-0.00137787;5221;1 mA
-0.098877;412.196;-0.00137085;5250;1 mA
-0.0944519;413.081;-0.00136414;5279;1 mA
-0.0900269;413.966;-0.00135345;5308;1 mA
-0.0856018;414.851;-0.00134552;5337;1 mA
-0.0811768;415.736;-0.00133972;5366;1 mA
-0.0767517;416.621;-0.00133057;5395;1 mA
-0.0723267;417.506;-0.00132172;5424;1 mA
-0.0679016;418.391;-0.00130188;5453;1 mA
-0.0634766;419.276;-0.00129761;5482;1 mA
-0.0590515;420.161;-0.00128052;5511;1 mA
-0.0546265;421.046;-0.00125946;5540;1 mA
-0.0502014;421.931;-0.00124664;5569;1 mA
-0.0457764;422.817;-0.00122437;5598;1 mA
-0.0413513;423.702;-0.00120422;5627;1 mA
-0.0369263;424.587;-0.00117218;5656;1 mA
-0.0325012;425.472;-0.00114685;5685;1 mA
-0.0280762;426.357;-0.00111053;5714;1 mA
-0.0236511;427.242;-0.00107605;5743;1 mA
-0.0192261;428.127;-0.00103271;5772;1 mA
-0.014801;429.012;-0.000989685;5801;1 mA
-0.010376;429.897;-0.00093811;5830;1 mA
-0.00595093;430.782;-0.000882568;5859;1 mA
-0.00152588;431.667;-0.000826416;5888;1 mA
0.00289917;432.552;-0.000764465;5917;1 mA
0.00732422;433.437;-0.000701599;5946;1 mA
0.0117493;434.322;-0.000635681;5975;1 mA
0.0161743;435.207;-0.000570984;6004;1 mA
0.0205994;436.092;-0.000506897;6033;1 mA
0.0250244;436.977;-0.000443939;6062;1 mA
0.0294495;437.862;-0.000385529;6091;1 mA
0.0338745;438.747;-0.000329132;6120;1 mA
0.0382996;439.632;-0.000277679;6149;1 mA
0.0427246;440.517;-0.000231598;6178;1 mA
0.0471497;441.402;-0.000190552;6207;1 mA
0.0515747;442.287;-0.000154968;6236;1 mA
0.0559998;443.172;-0.00012381;6265;1 mA
0.0604248;444.057;-9.77783e-05;6294;1 mA
0.0648499;444.942;-7.547e-05;6323;1 mA
0.0692749;445.827;-5.7251e-05;6352;1 mA
0.0737;446.712;-4.20807e-05;6381;1 mA
0.078125;447.597;-2.9834e-05;6410;1 mA
0.08255;448.482;-1.97662e-05;6439;1 mA
0.0869751;449.367;-1.16852e-05;6468;1 mA
0.0914001;450.252;-5.42603e-06;6497;1 mA
0.0958252;451.137;-3.2959e-07;6526;1 mA
0.10025;452.022;3.80859e-06;6555;1 mA
0.104675;452.907;7.1167e-06;6584;1 mA
0.1091;453.792;9.60388e-06;6613;1 mA
0.113525;454.677;1.17737e-05;6642;1 mA
0.11795;455.562;1.37878e-05;6671;1 mA
0.122375;456.447;1.52435e-05;6700;1 mA
0.126801;457.332;1.61316e-05;6729;1 mA
0.131226;458.217;1.71295e-05;6758;1 mA
0.135651;459.102;1.76636e-05;6787;1 mA
0.140076;459.987;1.86127e-05;6816;1 mA
0.144501;460.872;1.91925e-05;6845;1 mA
0.148926;461.757;1.93604e-05;6874;1 mA
0.153351;462.643;1.97021e-05;6903;1 mA
0.157776;463.528;1.98181e-05;6932;1 mA
0.162201;464.413;2.00806e-05;6961;1 mA
0.166626;465.298;2.01294e-05;6990;1 mA
0.171051;466.183;2.02545e-05;7019;1 mA
0.175476;467.068;2.034e-05;7048;1 mA
0.179901;467.953;2.05322e-05;7077;1 mA
0.184326;468.838;2.06848e-05;7106;1 mA
0.188751;469.723;2.05566e-05;7135;1 mA
0.193176;470.608;2.07123e-05;7164;1 mA
0.197601;471.493;2.06909e-05;7193;1 mA
0.200043;471.981;2.0639e-05;7209;1 mA